participant_id	task	condition	trial	sequence	response	NCorrect	partialScore	triggerCorrect
sub-054	remember	9	4	691287305	691287035	6	7	111111001
sub-054	remember	13	5	8130624795946	8130949	4	4	1111000000000
sub-054	remember	5	6	82017	82017	5	5	11111
sub-054	remember	5	7	50427	50427	5	5	11111
sub-054	remember	13	8	7318452906710	n/a	0	0	0000000000000
sub-054	remember	5	9	71502	71502	5	5	11111
sub-054	remember	9	10	425167389	421567	2	4	110011000
sub-054	remember	5	11	28369	28369	5	5	11111
sub-054	remember	13	12	7028531496873	7013618	2	2	1100000000000
sub-054	remember	13	13	7512089634639	70125	1	3	1011000000000
sub-054	remember	9	14	436528190	4635281906	1	7	100111111
sub-054	remember	9	15	036589714	03698914	3	5	111011000
sub-054	remember	5	22	14670	14670	5	5	11111
sub-054	remember	13	23	8462019375802	8462013579806	6	9	1111110010110
sub-054	remember	5	24	91720	91270	2	3	11001
sub-054	remember	9	25	387502641	3812036	2	4	110010100
sub-054	remember	9	26	825436109	825436021	6	6	111111000
sub-054	remember	9	27	145630279	146034	2	3	110010000
sub-054	remember	13	28	0964527183274	89165024	0	2	0100100000000
sub-054	remember	13	29	0791435682632	079145369	5	6	1111100100000
sub-054	remember	13	30	1920453768409	194530698	2	2	1100000000000
sub-054	remember	5	31	61375	61375	5	5	11111
sub-054	remember	9	32	391482570	398412	2	4	110101000
sub-054	remember	5	33	85794	87594	1	3	10011
sub-054	remember	13	40	6703248915761	57034891	0	3	0111000000000
sub-054	remember	9	41	827493051	829704	2	2	110000000
sub-054	remember	5	42	89206	89206	5	5	11111
sub-054	remember	9	43	073819526	8796	0	1	010000000
sub-054	remember	9	44	805791463	8904519	1	2	100001000
sub-054	remember	9	45	840361527	840651434	3	4	111001000
sub-054	remember	13	46	3540681297594	3570	2	3	1101000000000
sub-054	remember	13	47	1078564392572	10654	2	2	1100000000000
sub-054	remember	5	48	02576	02576	5	5	11111
sub-054	remember	5	49	32169	32169	5	5	11111
sub-054	remember	13	50	4895130672321	490361	1	1	1000000000000
sub-054	remember	5	51	29741	29741	5	5	11111
sub-054	remember	5	58	48069	48069	5	5	11111
sub-054	remember	9	59	836295710	8936591	1	1	100000000
sub-054	remember	5	60	16780	16780	5	5	11111
sub-054	remember	13	61	1958437026196	19480169	2	3	1101000000000
sub-054	remember	9	62	154086293	15480293	3	3	111000000
sub-054	remember	5	63	53827	53827	5	5	11111
sub-054	remember	9	64	082693417	082693417	9	9	111111111
sub-054	remember	5	65	37410	37140	2	3	11001
sub-054	remember	9	66	580962471	580691407	3	4	111000100
sub-054	remember	13	67	3105294678479	310596	4	4	1111000000000
sub-054	remember	13	68	4315862709678	41902687	1	3	1000010100000
sub-054	remember	13	69	3869457120473	3896540	2	2	1100000000000
sub-054	remember	9	76	830291546	830912546	3	6	111000111
sub-054	remember	13	77	9078415623125	907814567	4	6	1111001100000
sub-054	remember	9	78	370985162	370895102	3	6	111001101
sub-054	remember	13	79	6981502347184	6981502	7	7	1111111000000
sub-054	remember	5	80	63714	63714	5	5	11111
sub-054	remember	13	81	7250961483205	720915320	2	2	1100000000000
sub-054	remember	5	82	53967	53967	5	5	11111
sub-054	remember	13	83	6045872913147	604519	4	4	1111000000000
sub-054	remember	5	84	69724	697	3	3	11100
sub-054	remember	9	85	432675908	4326758905	6	6	111111000
sub-054	remember	9	86	198653204	19835624	3	5	111010100
sub-054	remember	5	87	45723	45723	5	5	11111
sub-054	remember	5	94	45692	45692	5	5	11111
sub-054	remember	13	95	4627380915405	426462083	1	2	1000001000000
sub-054	remember	9	96	217486053	217217081456	3	4	111000100
sub-054	remember	5	97	49816	49816	5	5	11111
sub-054	remember	9	98	241378650	241378650	9	9	111111111
sub-054	remember	5	99	97613	97163	2	3	11001
sub-054	remember	13	100	9275301648758	9271530468	3	4	1110000001000
sub-054	remember	13	101	5690217834085	5602378	2	2	1100000000000
sub-054	remember	13	102	8910362457294	891320694	3	3	1110000000000
sub-054	remember	9	103	720943586	720845360	3	4	111010000
sub-054	remember	9	104	397042561	3970425610	9	9	111111111
sub-054	remember	5	105	35428	35248	2	3	11001
sub-054	remember	9	112	517348290	517340128	5	5	111110000
sub-054	remember	9	113	463879251	4638451	4	4	111100000
sub-054	remember	13	114	0751284963582	07812457	2	4	1101100000000
sub-054	remember	5	115	91843	91843	5	5	11111
sub-054	remember	9	116	756081394	7560913694	4	6	111101100
sub-054	remember	13	117	6138295074013	n/a	0	0	0000000000000
sub-054	remember	9	118	987531204	987125431	3	3	111000000
sub-054	remember	13	119	1942567308473	192456310	2	5	1100110010000
sub-054	remember	5	120	37829	378129	3	3	11100
sub-054	remember	5	121	54732	54732	5	5	11111
sub-054	remember	13	122	2751068493501	2781605	2	3	1101000000000
sub-054	remember	5	123	90357	90357	5	5	11111
sub-054	remember	13	130	3670529814037	3760528	1	4	1001110000000
sub-054	remember	5	131	29815	20895	1	3	10101
sub-054	remember	13	132	1609854732392	n/a	0	0	0000000000000
sub-054	remember	9	133	917428603	917820641	3	5	111010100
sub-054	remember	9	134	487210396	4178623	1	3	101000100
sub-054	remember	9	135	936512784	9365127849	9	9	111111111
sub-054	remember	5	136	60397	60397	5	5	11111
sub-054	remember	13	137	6384572109154	6378638457012	2	2	1100000000000
sub-054	remember	9	138	491302876	49102987	3	5	111000110
sub-054	remember	5	139	18469	18469	5	5	11111
sub-054	remember	5	140	03476	04376	1	3	10011
sub-054	remember	13	141	3519874620256	39198756107	1	7	1011110101000
sub-054	remember	5	148	10469	10469	5	5	11111
sub-054	remember	5	149	71352	731052	1	1	10000
sub-054	remember	9	150	659238407	6503285	2	3	110001000
sub-054	remember	5	151	56019	n/a	0	0	00000
sub-054	remember	13	152	5290743861847	529034	4	5	1111010000000
sub-054	remember	13	153	5701624893834	n/a	0	0	0000000000000
sub-054	remember	9	154	367802541	36780241	6	6	111111000
sub-054	remember	13	155	4086719235478	40861	4	4	1111000000000
sub-054	remember	9	156	308279164	n/a	0	0	000000000
sub-054	remember	9	157	405736128	n/a	0	0	000000000
sub-054	remember	5	158	59274	59274	5	5	11111
sub-054	remember	13	159	0647283195258	n/a	0	0	0000000000000
