participant_id	task	condition	trial	sequence	response	NCorrect	partialScore	triggerCorrect
sub-098	remember	13	4	2351976480763	29351678903	1	2	1000000001000
sub-098	remember	9	5	076831495	09638145	1	4	101001100
sub-098	remember	5	6	28750	28750	5	5	11111
sub-098	remember	13	7	8470293165086	8463508706	2	2	1100000000000
sub-098	remember	9	8	438790215	43870135	4	4	111100000
sub-098	remember	9	9	324079651	32407931	6	6	111111000
sub-098	remember	5	10	40578	40578	5	5	11111
sub-098	remember	9	11	547019823	54079183	2	3	110000100
sub-098	remember	13	12	3065812794179	30658169	6	6	1111110000000
sub-098	remember	5	13	45809	45809	5	5	11111
sub-098	remember	5	14	19025	19025	5	5	11111
sub-098	remember	13	15	6247985301712	624095172	3	4	1110100000000
sub-098	remember	9	22	509823746	509836	4	4	111100000
sub-098	remember	9	23	480671392	487012	2	2	110000000
sub-098	remember	5	24	48510	48510	5	5	11111
sub-098	remember	5	25	95468	95468	5	5	11111
sub-098	remember	9	26	536814920	536841920	4	7	111100111
sub-098	remember	13	27	1603842759856	15036418956	1	4	1011010000000
sub-098	remember	13	28	6891034275058	38164538	0	1	0100000000000
sub-098	remember	5	29	79251	79251	5	5	11111
sub-098	remember	5	30	25841	25841	5	5	11111
sub-098	remember	9	31	736408215	736408515	6	8	111111011
sub-098	remember	13	32	4729036815654	47285154	3	3	1110000000000
sub-098	remember	13	33	4916758320657	4516287	1	3	1011000000000
sub-098	remember	13	40	5081723469579	51069	1	1	1000000000000
sub-098	remember	13	41	7259634108967	725947	4	4	1111000000000
sub-098	remember	9	42	849273610	843270	2	4	110110000
sub-098	remember	5	43	19603	1963	3	3	11100
sub-098	remember	5	44	70386	70386	5	5	11111
sub-098	remember	13	45	4756329108179	4698169	1	2	1000001000000
sub-098	remember	9	46	034981275	049725	1	1	100000000
sub-098	remember	13	47	3579840216859	325689	1	2	1000100000000
sub-098	remember	5	48	83504	83504	5	5	11111
sub-098	remember	9	49	547692103	547293	3	4	111010000
sub-098	remember	5	50	72318	72318	5	5	11111
sub-098	remember	9	51	436097512	4360912	5	5	111110000
sub-098	remember	9	58	152749306	1524306	3	3	111000000
sub-098	remember	5	59	28943	28943	5	5	11111
sub-098	remember	13	60	9624781503846	9248648146	1	1	1000000000000
sub-098	remember	13	61	6839012457076	6813049604	2	3	1100100000000
sub-098	remember	13	62	5196382047684	514684	2	3	1101000000000
sub-098	remember	5	63	23068	23068	5	5	11111
sub-098	remember	5	64	18403	18403	5	5	11111
sub-098	remember	9	65	769134250	76912450	4	5	111101000
sub-098	remember	9	66	836712590	836712590	9	9	111111111
sub-098	remember	9	67	564218703	564213	5	5	111110000
sub-098	remember	5	68	45368	45368	5	5	11111
sub-098	remember	13	69	1029367458792	12036757892	1	1	1000000000000
sub-098	remember	9	76	580369714	5830696714	2	4	110011000
sub-098	remember	13	77	7058631294193	268191293	0	0	0000000000000
sub-098	remember	5	78	97840	97840	5	5	11111
sub-098	remember	5	79	67805	67805	5	5	11111
sub-098	remember	13	80	5163207894964	53201694	1	1	1000000000000
sub-098	remember	5	81	71829	71829	5	5	11111
sub-098	remember	9	82	506982341	56962143	1	1	100000000
sub-098	remember	9	83	937145806	93714506	6	6	111111000
sub-098	remember	9	84	629508147	6290417	3	3	111000000
sub-098	remember	5	85	24956	24956	5	5	11111
sub-098	remember	13	86	9062153784046	9062194646	5	5	1111100000000
sub-098	remember	13	87	4915032678647	4915047	5	5	1111100000000
sub-098	remember	5	94	14679	14679	5	5	11111
sub-098	remember	5	95	59268	59268	5	5	11111
sub-098	remember	13	96	1984056237482	1940482	2	2	1100000000000
sub-098	remember	9	97	647105892	647105092	6	8	111111011
sub-098	remember	13	98	7018564923253	70125639323	3	6	1110110100000
sub-098	remember	13	99	0273164985869	027185869	3	3	1110000000000
sub-098	remember	9	100	219574630	215960	2	2	110000000
sub-098	remember	9	101	423951670	423951630	7	8	111111101
sub-098	remember	5	102	89305	89305	5	5	11111
sub-098	remember	13	103	7906184235708	98763598	0	1	0001000000000
sub-098	remember	5	104	92570	92570	5	5	11111
sub-098	remember	9	105	584190726	5841726	4	4	111100000
sub-098	remember	9	112	401732659	4017269	4	4	111100000
sub-098	remember	5	113	68523	68523	5	5	11111
sub-098	remember	9	114	403862957	4038597	4	4	111100000
sub-098	remember	9	115	712043596	712045796	5	7	111110011
sub-098	remember	9	116	819426053	81609453	2	2	110000000
sub-098	remember	13	117	4208179635453	42081796423	8	8	1111111100000
sub-098	remember	13	118	3251648907285	3254875	3	3	1110000000000
sub-098	remember	5	119	02459	02459	5	5	11111
sub-098	remember	13	120	8649021375819	8649020179	6	7	1111110010000
sub-098	remember	5	121	42591	42591	5	5	11111
sub-098	remember	5	122	14259	14259	5	5	11111
sub-098	remember	13	123	9512486073508	951898	3	4	1110010000000
sub-098	remember	13	130	9425638170621	942563091	6	6	1111110000000
sub-098	remember	9	131	512483790	25183790	0	0	000000000
sub-098	remember	5	132	57341	57341	5	5	11111
sub-098	remember	13	133	6280975314839	6280941839	5	5	1111100000000
sub-098	remember	9	134	501976328	501936368	4	7	111101101
sub-098	remember	13	135	7308649251601	73096421	3	5	1110110000000
sub-098	remember	5	136	65293	62593	1	3	10011
sub-098	remember	13	137	2180739465491	2180656431	4	5	1111000100000
sub-098	remember	9	138	476319825	437615	1	2	100010000
sub-098	remember	9	139	245683170	2583180	1	1	100000000
sub-098	remember	5	140	26489	26489	5	5	11111
sub-098	remember	5	141	56904	56904	5	5	11111
sub-098	remember	13	148	0386742195251	038965971	3	3	1110000000000
sub-098	remember	5	149	69830	69830	5	5	11111
sub-098	remember	13	150	6502917843437	650943437	3	3	1110000000000
sub-098	remember	9	151	154369087	1543897	4	5	111101000
sub-098	remember	9	152	389160527	38916257	5	6	111110100
sub-098	remember	5	153	64502	64502	5	5	11111
sub-098	remember	5	154	78524	78524	5	5	11111
sub-098	remember	13	155	1906237854178	1906861	4	4	1111000000000
sub-098	remember	13	156	3425687901845	345685	2	2	1100000000000
sub-098	remember	9	157	785104296	7851496	4	4	111100000
sub-098	remember	9	158	751629043	7514593	3	4	111001000
sub-098	remember	5	159	95872	95872	5	5	11111
