participant_id	task	condition	trial	sequence	response	NCorrect	partialScore	triggerCorrect
sub-014	remember	5	4	42587	42587	5	5	11111
sub-014	remember	13	5	9725408136098	97543517	2	2	1100000000000
sub-014	remember	5	6	08724	08724	5	5	11111
sub-014	remember	13	7	8391460752538	9654535321	0	0	0000000000000
sub-014	remember	13	8	5296071834065	529616875	4	4	1111000000000
sub-014	remember	13	9	7354261890257	89350721	0	0	0000000000000
sub-014	remember	9	10	573401682	5347182	1	1	100000000
sub-014	remember	9	11	205346178	5034618	0	1	010000000
sub-014	remember	9	12	568791204	568791234	7	8	111111101
sub-014	remember	9	13	280564197	5047891	0	1	000000100
sub-014	remember	5	14	17830	13780	1	2	10001
sub-014	remember	5	15	25601	25601	5	5	11111
sub-014	remember	5	22	48159	48159	5	5	11111
sub-014	remember	9	23	489052613	4890153	4	4	111100000
sub-014	remember	9	24	593847062	593847	6	6	111111000
sub-014	remember	13	25	3671425098954	53819145	0	1	0001000000000
sub-014	remember	5	26	86243	86243	5	5	11111
sub-014	remember	5	27	01395	01395	5	5	11111
sub-014	remember	9	28	682430571	68324571	2	2	110000000
sub-014	remember	5	29	13208	13208	5	5	11111
sub-014	remember	13	30	8346250917921	865479171	1	2	1000000010000
sub-014	remember	13	31	2396045871287	23945687781	3	4	1110000010000
sub-014	remember	13	32	3175869240620	3156890	2	3	1100100000000
sub-014	remember	9	33	160782943	16094	3	3	111000000
sub-014	remember	9	40	983217056	98321076	5	5	111110000
sub-014	remember	13	41	4183962705260	41567976	2	2	1100000000000
sub-014	remember	13	42	3762814590856	358146186	1	1	1000000000000
sub-014	remember	9	43	812960473	81269489	3	3	111000000
sub-014	remember	5	44	85104	85104	5	5	11111
sub-014	remember	13	45	4650832791691	45683691	1	1	1000000000000
sub-014	remember	9	46	723896045	7238145	4	4	111100000
sub-014	remember	5	47	69710	69710	5	5	11111
sub-014	remember	5	48	80926	80926	5	5	11111
sub-014	remember	9	49	956843102	95681420	4	5	111100010
sub-014	remember	5	50	52961	52961	5	5	11111
sub-014	remember	13	51	9083741265751	80749561	0	1	0100000000000
sub-014	remember	13	58	9045613278046	9042180	3	3	1110000000000
sub-014	remember	9	59	719263540	719254312	4	4	111100000
sub-014	remember	5	60	50179	50719	2	3	11001
sub-014	remember	9	61	735102984	73510784	5	5	111110000
sub-014	remember	5	62	76048	78094	1	2	10100
sub-014	remember	13	63	1054268379025	105471895	4	5	1111001000000
sub-014	remember	5	64	07928	07928	5	5	11111
sub-014	remember	13	65	4815203796847	48751941	2	3	1101000000000
sub-014	remember	9	66	293784016	29478610	2	4	110110000
sub-014	remember	5	67	75820	75820	5	5	11111
sub-014	remember	13	68	3025618497296	90514969	0	1	0100000000000
sub-014	remember	9	69	370956248	35694780	1	2	100100000
sub-014	remember	9	76	348679512	347856321	2	2	110000000
sub-014	remember	13	77	3590178642176	3590432196	4	4	1111000000000
sub-014	remember	13	78	1372896540175	137834501	3	3	1110000000000
sub-014	remember	13	79	5206914783729	52087619519	3	3	1110000000000
sub-014	remember	5	80	19385	1985	2	2	11000
sub-014	remember	5	81	03186	03816	2	3	11001
sub-014	remember	5	82	27504	27504	5	5	11111
sub-014	remember	9	83	731924058	73195048	4	4	111100000
sub-014	remember	9	84	697410523	6971453	3	3	111000000
sub-014	remember	13	85	3728619045639	3781456198	2	2	1100000000000
sub-014	remember	5	86	96548	96548	5	5	11111
sub-014	remember	9	87	042613975	04261974	5	5	111110000
sub-014	remember	13	94	0537129864614	053689169321	3	4	1110000000010
sub-014	remember	5	95	08431	08431	5	5	11111
sub-014	remember	5	96	68493	68493	5	5	11111
sub-014	remember	5	97	86350	86350	5	5	11111
sub-014	remember	13	98	2073458619659	087615953	0	2	0010010000000
sub-014	remember	9	99	057846921	50784621	0	4	001111000
sub-014	remember	5	100	70382	70382	5	5	11111
sub-014	remember	9	101	392614578	39621479	2	4	110011000
sub-014	remember	9	102	932867540	9356789143	2	2	110000000
sub-014	remember	9	103	038796215	8965121	0	0	000000000
sub-014	remember	13	104	8569742301327	86951432101	1	2	1000010000000
sub-014	remember	13	105	8253694017873	35943218731	0	0	0000000000000
sub-014	remember	9	112	516083279	568379	1	1	100000000
sub-014	remember	5	113	13675	13675	5	5	11111
sub-014	remember	9	114	862013475	86213016	3	3	111000000
sub-014	remember	5	115	91830	91830	5	5	11111
sub-014	remember	9	116	672054931	560931	0	0	000000000
sub-014	remember	9	117	297415608	29641568	2	6	110111100
sub-014	remember	13	118	5123684709357	2158974151	0	2	0100001000000
sub-014	remember	13	119	3715480926469	3518764989	1	3	1010000100000
sub-014	remember	5	120	39154	39154	5	5	11111
sub-014	remember	5	121	95068	956086	2	3	11001
sub-014	remember	13	122	0648391275450	03456781913	1	2	1010000000000
sub-014	remember	13	123	2507831649790	0527148971	0	2	0101000000000
sub-014	remember	9	130	237189540	718540	0	0	000000000
sub-014	remember	5	131	49215	49512	2	3	11010
sub-014	remember	13	132	3104276958498	312948930	2	2	1100000000000
sub-014	remember	5	133	63078	63078	5	5	11111
sub-014	remember	9	134	649057321	640954321	2	6	110010111
sub-014	remember	13	135	3576980142039	3576831219	4	4	1111000000000
sub-014	remember	9	136	931685720	965178931	1	1	100000000
sub-014	remember	13	137	0615279384927	0612597219	3	3	1110000000000
sub-014	remember	5	138	63245	632145	3	3	11100
sub-014	remember	9	139	138620795	138650913	4	5	111101000
sub-014	remember	5	140	15348	15348	5	5	11111
sub-014	remember	13	141	4867920315316	486121881	3	4	1110000010000
sub-014	remember	13	148	1236485097937	123648951	6	6	1111110000000
sub-014	remember	5	149	06534	06534	5	5	11111
sub-014	remember	13	150	4826705913923	486514921	2	3	1100000010000
sub-014	remember	9	151	368290471	3680901	3	5	111011000
sub-014	remember	13	152	4269831570369	42698761	5	5	1111100000000
sub-014	remember	9	153	173046259	177601249	2	4	110000101
sub-014	remember	5	154	79218	79218	5	5	11111
sub-014	remember	5	155	06127	06137	3	4	11101
sub-014	remember	13	156	2570681439271	5270819472	0	3	0011000100000
sub-014	remember	9	157	028316579	028315689	5	6	111110001
sub-014	remember	5	158	89617	89617	5	5	11111
sub-014	remember	9	159	368247195	12824712	0	5	001111100
