participant_id	task	condition	trial	sequence	response	NCorrect	partialScore	triggerCorrect
sub-086	remember	13	4	3598264071015	359826701	6	7	1111110100000
sub-086	remember	13	5	4750236819321	5740271	0	3	0101100000000
sub-086	remember	5	6	46850	46850	5	5	11111
sub-086	remember	13	7	7389051246892	738025982	3	4	1110010000000
sub-086	remember	13	8	9036174852897	46137861	0	0	0000000000000
sub-086	remember	9	9	079348152	07435842	2	4	110101000
sub-086	remember	9	10	672038195	6380381	1	5	100111100
sub-086	remember	9	11	082564793	0865746	2	4	110101000
sub-086	remember	5	12	24659	54269	0	2	01001
sub-086	remember	5	13	78519	78519	5	5	11111
sub-086	remember	9	14	472638051	4763281	2	3	110001000
sub-086	remember	5	15	38016	38016	5	5	11111
sub-086	remember	5	22	93816	93816	5	5	11111
sub-086	remember	13	23	2749361058519	2746158	3	3	1110000000000
sub-086	remember	13	24	0459137826052	042567560	2	2	1100000000000
sub-086	remember	9	25	251906784	25167084	3	3	111000000
sub-086	remember	5	26	03287	03287	5	5	11111
sub-086	remember	5	27	08523	08523	5	5	11111
sub-086	remember	9	28	843210965	284210645	0	4	000111001
sub-086	remember	9	29	268970153	96821	0	2	011000000
sub-086	remember	5	30	40738	40738	5	5	11111
sub-086	remember	13	31	9602481537027	942607252	1	2	1000000100000
sub-086	remember	9	32	493601287	460312682	1	2	100000010
sub-086	remember	13	33	7863954102570	7863290	4	4	1111000000000
sub-086	remember	5	40	59728	59728	5	5	11111
sub-086	remember	9	41	456310287	4621078	1	1	100000000
sub-086	remember	5	42	02435	02435	5	5	11111
sub-086	remember	13	43	6138409275451	61849051	2	3	1100010000000
sub-086	remember	5	44	36041	36014	3	3	11100
sub-086	remember	5	45	83256	83256	5	5	11111
sub-086	remember	13	46	7649510283018	7649210894	4	6	1111011000000
sub-086	remember	13	47	8625093741705	89540748230	1	2	1000100000000
sub-086	remember	13	48	8592603471758	8960405314	1	2	1000010000000
sub-086	remember	9	49	275349068	273459708	2	4	110001001
sub-086	remember	9	50	095247638	09542038	3	3	111000000
sub-086	remember	9	51	851039267	85103792	5	5	111110000
sub-086	remember	9	58	708163459	70816359	6	6	111111000
sub-086	remember	13	59	0213958476208	02576208	2	2	1100000000000
sub-086	remember	5	60	32689	32689	5	5	11111
sub-086	remember	5	61	39761	39617	2	2	11000
sub-086	remember	13	62	5467291308028	546178249	3	3	1110000000000
sub-086	remember	5	63	62597	62597	5	5	11111
sub-086	remember	13	64	8571390264684	851376834	2	2	1100000000000
sub-086	remember	9	65	798403652	784957542	1	2	100000001
sub-086	remember	5	66	06235	06235	5	5	11111
sub-086	remember	13	67	1206983745764	0127854874	0	0	0000000000000
sub-086	remember	9	68	736152904	7361204	4	4	111100000
sub-086	remember	9	69	436291750	46379520	1	2	100010000
sub-086	remember	5	76	98017	98017	5	5	11111
sub-086	remember	9	77	746950283	74096573	2	3	110100000
sub-086	remember	5	78	25071	25071	5	5	11111
sub-086	remember	9	79	327984061	327098461	3	5	111000011
sub-086	remember	9	80	518734260	517824610	2	4	110001001
sub-086	remember	9	81	524938610	52469801	3	5	111001010
sub-086	remember	13	82	3251967084258	32580146387	3	3	1110000000000
sub-086	remember	13	83	3465890172620	345780174521	2	3	1100100000000
sub-086	remember	13	84	0231986574016	032198654789	1	6	1001111100000
sub-086	remember	5	85	38956	38956	5	5	11111
sub-086	remember	13	86	2389547160934	23896154781	4	4	1111000000000
sub-086	remember	5	87	02917	02917	5	5	11111
sub-086	remember	9	94	760215893	760152718	3	3	111000000
sub-086	remember	13	95	4172683059769	740613789	0	0	0000000000000
sub-086	remember	13	96	5062849173705	560137814381	1	3	1000000101000
sub-086	remember	9	97	510762894	5102784	3	3	111000000
sub-086	remember	5	98	10293	10293	5	5	11111
sub-086	remember	9	99	820941367	82014367	3	4	111010000
sub-086	remember	13	100	9684217530345	7403519784	0	1	0000010000000
sub-086	remember	5	101	73128	713218	1	2	10010
sub-086	remember	9	102	709513862	7158962	1	1	100000000
sub-086	remember	5	103	60732	60372	2	3	11001
sub-086	remember	5	104	45129	45125	4	4	11110
sub-086	remember	13	105	9386075214345	938745482	3	3	1110000000000
sub-086	remember	5	112	09745	09745	5	5	11111
sub-086	remember	5	113	08397	08397	5	5	11111
sub-086	remember	13	114	1726548390203	17346587163	2	3	1100001000000
sub-086	remember	9	115	402816793	40281643	6	6	111111000
sub-086	remember	13	116	9275310684813	9402574	1	1	1000000000000
sub-086	remember	9	117	430879562	4308564302	4	4	111100000
sub-086	remember	5	118	82351	82351	5	5	11111
sub-086	remember	13	119	4765130892609	47653470268	4	4	1111000000000
sub-086	remember	5	120	47912	47932	3	4	11101
sub-086	remember	9	121	087962354	086735647	2	2	110000000
sub-086	remember	9	122	769134280	769354890	3	5	111001001
sub-086	remember	13	123	3490176528089	07428909	0	0	0000000000000
sub-086	remember	13	130	8415926703136	8456136789	2	4	1100001100000
sub-086	remember	13	131	5329480176053	59308157903	1	1	1000000000000
sub-086	remember	13	132	6730124859209	860312589	0	3	0000110100000
sub-086	remember	5	133	54162	54162	5	5	11111
sub-086	remember	13	134	6719340528261	63470125682	1	4	1000000101100
sub-086	remember	5	135	84951	8945	1	2	10010
sub-086	remember	5	136	84672	846172	3	3	11100
sub-086	remember	9	137	062547318	0625173851	4	6	111101100
sub-086	remember	9	138	451279836	45108375	3	3	111000000
sub-086	remember	9	139	059238467	05938467	3	3	111000000
sub-086	remember	9	140	874105263	8741056743	6	6	111111000
sub-086	remember	5	141	19284	19284	5	5	11111
sub-086	remember	13	148	6871532409280	681534982	2	2	1100000000000
sub-086	remember	9	149	837150924	87135814	1	2	100010000
sub-086	remember	9	150	296180753	2980187561	2	4	110000110
sub-086	remember	13	151	3490627851910	34906872910	5	7	1111101001000
sub-086	remember	9	152	541362879	54136789	5	6	111110100
sub-086	remember	9	153	594387621	5943789362	4	4	111100000
sub-086	remember	5	154	93845	93845	5	5	11111
sub-086	remember	5	155	87125	87125	5	5	11111
sub-086	remember	5	156	38250	38250	5	5	11111
sub-086	remember	13	157	9607845213614	98062543812	1	2	1010000000000
sub-086	remember	13	158	7639048251016	9064287	0	0	0000000000000
sub-086	remember	5	159	10763	10763	5	5	11111
