participant_id	task	condition	trial	sequence	response	NCorrect	partialScore	triggerCorrect
sub-028	remember	5	4	70148	70148	5	5	11111
sub-028	remember	5	5	69458	69458	5	5	11111
sub-028	remember	13	6	6879034251486	79680346	0	3	0000111000000
sub-028	remember	13	7	7809143562392	7809134502	5	7	1111100101000
sub-028	remember	9	8	253409867	253407892	5	6	111110100
sub-028	remember	13	9	9420761583241	94027	2	3	1100100000000
sub-028	remember	5	10	43081	43081	5	5	11111
sub-028	remember	13	11	7940821536498	7940298	4	4	1111000000000
sub-028	remember	9	12	931267450	97034570	1	1	100000000
sub-028	remember	5	13	39160	39610	2	3	11001
sub-028	remember	9	14	510346928	51304681	2	4	110011000
sub-028	remember	9	15	965802731	9650831	3	3	111000000
sub-028	remember	5	22	30197	30197	5	5	11111
sub-028	remember	5	23	87420	87420	5	5	11111
sub-028	remember	9	24	408321965	308432	0	2	011000000
sub-028	remember	5	25	96347	9634	4	4	11110
sub-028	remember	13	26	5142398706804	5142386	5	5	1111100000000
sub-028	remember	13	27	6759134280631	645971	1	3	1011000000000
sub-028	remember	13	28	2574160839582	n/a	0	0	0000000000000
sub-028	remember	13	29	3801276459270	380146590	4	4	1111000000000
sub-028	remember	9	30	324570196	3245706	6	6	111111000
sub-028	remember	9	31	618932405	6189051	4	4	111100000
sub-028	remember	9	32	108476253	10867532	3	4	111010000
sub-028	remember	5	33	46158	46158	5	5	11111
sub-028	remember	13	40	1926580473179	1926047	4	4	1111000000000
sub-028	remember	13	41	5789203146314	578942038	4	4	1111000000000
sub-028	remember	5	42	58791	57891	1	3	10011
sub-028	remember	9	43	549018763	547901	2	2	110000000
sub-028	remember	13	44	0291564387837	0295178738	3	3	1110000000000
sub-028	remember	9	45	173459806	1786391	2	3	110001000
sub-028	remember	9	46	814569327	81456873	5	5	111110000
sub-028	remember	5	47	89710	897130	4	4	11110
sub-028	remember	9	48	907348561	9730561	1	1	100000000
sub-028	remember	5	49	40652	40652	5	5	11111
sub-028	remember	13	50	9732815406745	9735260891	3	3	1110000000000
sub-028	remember	5	51	71408	71408	5	5	11111
sub-028	remember	9	58	461309578	461308974	5	6	111110010
sub-028	remember	5	59	09142	09142	5	5	11111
sub-028	remember	9	60	678253094	67802569	3	4	111000010
sub-028	remember	13	61	4758063912879	4758023961	5	7	1111101100000
sub-028	remember	13	62	5346210897902	53462109691	7	7	1111111000000
sub-028	remember	5	63	36879	36879	5	5	11111
sub-028	remember	13	64	4078526139517	407582916	3	5	1110010100000
sub-028	remember	9	65	913425687	912876	2	2	110000000
sub-028	remember	5	66	87249	872649	3	3	11100
sub-028	remember	5	67	85347	85347	5	5	11111
sub-028	remember	13	68	5937084261501	597362014	2	2	1100000000000
sub-028	remember	9	69	859120736	85913610	4	4	111100000
sub-028	remember	9	76	806375921	8063751	6	6	111111000
sub-028	remember	5	77	51802	51802	5	5	11111
sub-028	remember	13	78	9180527364194	91085261	2	4	1100110000000
sub-028	remember	5	79	73280	73280	5	5	11111
sub-028	remember	5	80	46328	46328	5	5	11111
sub-028	remember	5	81	48906	48906	5	5	11111
sub-028	remember	13	82	6190427853501	8642017	0	1	0000001000000
sub-028	remember	9	83	846937052	81465839	1	1	100000000
sub-028	remember	13	84	4093762518109	4065971385	2	2	1100000000000
sub-028	remember	9	85	083294751	083561	3	3	111000000
sub-028	remember	13	86	2985760431834	28756138	1	2	1001000000000
sub-028	remember	9	87	412089675	4816502	1	1	100000000
sub-028	remember	9	94	201637589	201635829	5	6	111110001
sub-028	remember	5	95	31864	318634	4	4	11110
sub-028	remember	13	96	6981704235042	68134290	1	1	1000000000000
sub-028	remember	5	97	74238	74280	3	3	11100
sub-028	remember	9	98	715902683	712805369	2	3	110010000
sub-028	remember	9	99	241760389	24617280	2	2	110000000
sub-028	remember	13	100	3806795142698	381602	2	3	1101000000000
sub-028	remember	13	101	3908756124540	3908264390	4	4	1111000000000
sub-028	remember	13	102	8364207159541	836429053	5	5	1111100000000
sub-028	remember	9	103	596143278	97540	0	0	000000000
sub-028	remember	5	104	61459	61459	5	5	11111
sub-028	remember	5	105	78235	78235	5	5	11111
sub-028	remember	9	112	436170892	43670842	3	3	111000000
sub-028	remember	5	113	80971	80971	5	5	11111
sub-028	remember	9	114	571902683	5719083	5	5	111110000
sub-028	remember	13	115	6239150487647	6219087647	2	4	1101000001000
sub-028	remember	13	116	5029416738284	50694682849	2	4	1101100000000
sub-028	remember	13	117	3462591807904	3462580974	5	5	1111100000000
sub-028	remember	5	118	01284	01284	5	5	11111
sub-028	remember	5	119	93721	93721	5	5	11111
sub-028	remember	9	120	204179563	2041967	4	4	111100000
sub-028	remember	5	121	13950	13950	5	5	11111
sub-028	remember	13	122	6041278359567	60415879	4	4	1111000000000
sub-028	remember	9	123	240135678	24015678	4	4	111100000
sub-028	remember	5	130	60482	60482	5	5	11111
sub-028	remember	9	131	945187630	9461876	2	6	110111100
sub-028	remember	9	132	405217896	40527892	4	4	111100000
sub-028	remember	5	133	70419	70419	5	5	11111
sub-028	remember	13	134	5497216038719	549726451	5	5	1111100000000
sub-028	remember	9	135	829351670	8513690	1	2	100100000
sub-028	remember	5	136	15290	85	0	1	01000
sub-028	remember	13	137	5041983726124	5041924	5	5	1111100000000
sub-028	remember	13	138	1465923807608	146597084	5	6	1111100100000
sub-028	remember	9	139	695072148	697012	2	4	110101000
sub-028	remember	13	140	7415309826742	74510923	2	2	1100000000000
sub-028	remember	5	141	06835	061835	2	2	11000
sub-028	remember	9	148	894175602	894175280	6	6	111111000
sub-028	remember	9	149	879104635	879105264	5	5	111110000
sub-028	remember	9	150	127306594	127360529	4	5	111100100
sub-028	remember	13	151	9160724538253	916072564309	6	6	1111110000000
sub-028	remember	9	152	806327514	8045725	2	3	110000100
sub-028	remember	5	153	89615	89615	5	5	11111
sub-028	remember	13	154	6849705123450	6849720	5	5	1111100000000
sub-028	remember	5	155	18934	18934	5	5	11111
sub-028	remember	13	156	3524180679084	3524180967	7	7	1111111000000
sub-028	remember	5	157	12895	12895	5	5	11111
sub-028	remember	13	158	4918562307530	498176	2	3	1100010000000
sub-028	remember	5	159	08451	08451	5	5	11111
