participant_id	task	condition	trial	sequence	response	NCorrect	partialScore	triggerCorrect
sub-017	remember	5	4	85941	85941	5	5	11111
sub-017	remember	9	5	841073562	841073562	9	9	111111111
sub-017	remember	13	6	3529078416506	835290175	0	0	0000000000000
sub-017	remember	13	7	4837215609807	4893721068970	2	2	1100000000000
sub-017	remember	9	8	214583607	214286307	3	6	111010011
sub-017	remember	9	9	376094582	376094582	9	9	111111111
sub-017	remember	13	10	0527384169290	3527840169620	0	7	0111000111001
sub-017	remember	5	11	02861	02861	5	5	11111
sub-017	remember	13	12	5246937081083	52460831083803	4	5	1111000000010
sub-017	remember	9	13	528017643	528017643	9	9	111111111
sub-017	remember	5	14	27369	27369	5	5	11111
sub-017	remember	5	15	83249	83249	5	5	11111
sub-017	remember	5	22	92083	92083	5	5	11111
sub-017	remember	9	23	875042963	875042963	9	9	111111111
sub-017	remember	5	24	38125	38125	5	5	11111
sub-017	remember	9	25	275983164	275983164	9	9	111111111
sub-017	remember	13	26	8206947135730	829635741359720	2	4	1101001000000
sub-017	remember	5	27	39546	39546	5	5	11111
sub-017	remember	13	28	8502693174096	8350693173590	1	7	1000111110010
sub-017	remember	13	29	6190843275784	8630693275744	0	7	0001001111101
sub-017	remember	13	30	5196328740570	6710357	0	1	0000100000000
sub-017	remember	9	31	201596438	201596438	9	9	111111111
sub-017	remember	5	32	70418	70418	5	5	11111
sub-017	remember	9	33	025167489	025167489	9	9	111111111
sub-017	remember	13	40	3706849512452	83617395412932	0	2	0000001100000
sub-017	remember	9	41	461275839	461275839	9	9	111111111
sub-017	remember	13	42	2690743581864	2690734586909	5	7	1111100110000
sub-017	remember	5	43	60157	60157	5	5	11111
sub-017	remember	5	44	86349	86349	5	5	11111
sub-017	remember	5	45	67315	67315	5	5	11111
sub-017	remember	13	46	2893457016269	287145906269	2	5	1100110100000
sub-017	remember	9	47	567041829	567041829	9	9	111111111
sub-017	remember	5	48	54873	54873	5	5	11111
sub-017	remember	9	49	017823945	017823945	9	9	111111111
sub-017	remember	13	50	7683194025436	7683494023571	4	8	1111011110000
sub-017	remember	9	51	263058479	263058439	7	8	111111101
sub-017	remember	5	58	80724	80724	5	5	11111
sub-017	remember	9	59	958763042	958763042	9	9	111111111
sub-017	remember	13	60	8790451623869	8790453162769	6	8	1111110000011
sub-017	remember	13	61	2876510349591	2873659043591	3	7	1110000010111
sub-017	remember	9	62	429873510	429873510	9	9	111111111
sub-017	remember	9	63	381905724	381905724	9	9	111111111
sub-017	remember	13	64	2083471956280	2831479056280	1	8	1000110011111
sub-017	remember	5	65	23745	23745	5	5	11111
sub-017	remember	9	66	593148602	593148602	9	9	111111111
sub-017	remember	13	67	2493860571267	2493765176297	4	8	1111010010101
sub-017	remember	5	68	76531	76531	5	5	11111
sub-017	remember	5	69	94823	94823	5	5	11111
sub-017	remember	13	76	1462709358397	1462759358397	5	12	1111101111111
sub-017	remember	13	77	1826537094097	1283597403297	1	5	1000101000011
sub-017	remember	9	78	516237480	516237480	9	9	111111111
sub-017	remember	5	79	98056	98056	5	5	11111
sub-017	remember	13	80	0459172863218	0491372817281	2	6	1100011100100
sub-017	remember	9	81	398762401	398762401	9	9	111111111
sub-017	remember	5	82	59812	59812	5	5	11111
sub-017	remember	13	83	8673192504175	8673195204392	6	8	1111110011000
sub-017	remember	5	84	51096	51096	5	5	11111
sub-017	remember	9	85	716098542	716098542	9	9	111111111
sub-017	remember	9	86	320764195	320764195	9	9	111111111
sub-017	remember	5	87	01583	01583	5	5	11111
sub-017	remember	13	94	7051894236765	8921354276792	0	5	0001001101100
sub-017	remember	13	95	7653084912792	765308764	6	6	1111110000000
sub-017	remember	9	96	508691247	508691247	9	9	111111111
sub-017	remember	5	97	74193	74193	5	5	11111
sub-017	remember	9	98	410825693	410825693	9	9	111111111
sub-017	remember	13	99	9073524186760	9431520786960	1	7	1000110011011
sub-017	remember	9	100	438592607	4315096270	2	5	110100101
sub-017	remember	5	101	54718	54718	5	5	11111
sub-017	remember	9	102	641958327	641958327	9	9	111111111
sub-017	remember	13	103	4920785163735	4920567263732	4	8	1111000011110
sub-017	remember	5	104	26437	26437	5	5	11111
sub-017	remember	5	105	90314	90314	5	5	11111
sub-017	remember	13	112	3427605189016	3453427590136207	2	3	1100000000001
sub-017	remember	9	113	927146530	927146530	9	9	111111111
sub-017	remember	5	114	35976	35976	5	5	11111
sub-017	remember	5	115	64509	64509	5	5	11111
sub-017	remember	13	116	8901752643214	8901752642314	9	11	1111111110011
sub-017	remember	9	117	013729584	013729584	9	9	111111111
sub-017	remember	13	118	5671403892874	0536149287287	0	0	0000000000000
sub-017	remember	5	119	52701	52701	5	5	11111
sub-017	remember	13	120	8376925410571	983354210712	0	0	0000000000000
sub-017	remember	9	121	631804295	631073245	3	5	111000101
sub-017	remember	5	122	96783	96783	5	5	11111
sub-017	remember	9	123	135428690	135428690	9	9	111111111
sub-017	remember	13	130	1435692087870	1432695087870	3	11	1110110111111
sub-017	remember	13	131	4738502619201	09357862610921	0	1	0010000000000
sub-017	remember	13	132	9621350874263	96213578496203	6	7	1111110100000
sub-017	remember	9	133	089421763	089421763	9	9	111111111
sub-017	remember	5	134	69452	69452	5	5	11111
sub-017	remember	9	135	083529746	083529746	9	9	111111111
sub-017	remember	5	136	23589	23589	5	5	11111
sub-017	remember	9	137	306745982	306745982	9	9	111111111
sub-017	remember	5	138	54876	54876	5	5	11111
sub-017	remember	13	139	3589047162496	3589046172976	6	9	1111110101001
sub-017	remember	9	140	602478593	602478593	9	9	111111111
sub-017	remember	5	141	47103	47103	5	5	11111
sub-017	remember	13	148	5398102674387	50938420673937	1	4	1010001000100
sub-017	remember	13	149	1673908425329	1673908423523	9	10	1111111110010
sub-017	remember	9	150	703285461	703285461	9	9	111111111
sub-017	remember	5	151	13247	13247	5	5	11111
sub-017	remember	5	152	98324	98324	5	5	11111
sub-017	remember	9	153	739854602	7398546302	7	7	111111100
sub-017	remember	5	154	87456	87426	3	4	11101
sub-017	remember	13	155	9324615708163	97534861076913	1	2	1000000010000
sub-017	remember	5	156	27695	27695	5	5	11111
sub-017	remember	9	157	290751864	290751864	9	9	111111111
sub-017	remember	13	158	8154039762692	8354608763262	1	6	1011000110001
sub-017	remember	9	159	785461239	785461239	9	9	111111111
